correct,correctSuppressions,countAnticipatory,countGo,countNoGo,countProbes,countValidGo,digit,digitPresentationTime,fontSize,incorrectSuppressions,latency,latencyType,maskPresentationTime,phase,radioButtons.difficulty.response,radioButtons.interest.response,response,responseType,rt,trialCount,trialType
1,0,0,1,0,0,1,6,250,16pct,0,617,3,900,test,,,57,Go Success,617,0,Go
1,0,0,2,0,0,2,8,250,10pct,0,381,3,900,test,,,57,Go Success,381,1,Go
1,0,0,3,0,0,3,8,250,4pct,0,295,3,900,test,,,57,Go Success,295,2,Go
1,0,0,4,0,0,4,6,250,10pct,0,240,3,900,test,,,57,Go Success,240,3,Go
1,0,0,5,0,0,5,5,250,4pct,0,282,3,900,test,,,57,Go Success,282,4,Go
1,0,0,6,0,0,6,4,250,2pct,0,299,3,900,test,,,57,Go Success,299,5,Go
1,0,0,7,0,0,7,2,250,16pct,0,279,3,900,test,,,57,Go Success,279,6,Go
0,0,0,7,1,0,7,3,250,4pct,0,336,3,900,test,,,57,NoGo Failure,336,7,No-Go
1,0,0,8,1,0,8,9,250,4pct,0,298,3,900,test,,,57,Go Success,298,8,Go
1,0,0,9,1,0,9,1,250,10pct,0,444,3,900,test,,,57,Go Success,444,9,Go
1,1,0,9,2,0,9,3,250,16pct,0,1150,0,900,test,,,0,NoGo Success,,10,No-Go
1,1,0,10,2,0,10,5,250,16pct,0,312,3,900,test,,,57,Go Success,312,11,Go
1,1,0,11,2,0,11,7,250,10pct,0,338,3,900,test,,,57,Go Success,338,12,Go
1,1,0,12,2,0,12,9,250,4pct,0,356,3,900,test,,,57,Go Success,356,13,Go
1,1,0,13,2,0,13,4,250,2pct,0,446,3,900,test,,,57,Go Success,446,14,Go
1,1,0,14,2,0,14,1,250,10pct,0,288,3,900,test,,,57,Go Success,288,15,Go
1,1,0,15,2,0,15,7,250,16pct,0,322,3,900,test,,,57,Go Success,322,16,Go
1,1,0,16,2,0,16,2,250,4pct,0,339,3,900,test,,,57,Go Success,339,17,Go
1,1,0,17,2,0,17,1,250,16pct,0,349,3,900,test,,,57,Go Success,349,18,Go
1,1,0,18,2,0,18,4,250,16pct,0,431,3,900,test,,,57,Go Success,431,19,Go
1,1,0,19,2,0,19,1,250,16pct,0,369,3,900,test,,,57,Go Success,369,20,Go
1,1,0,20,2,0,20,1,250,16pct,0,348,3,900,test,,,57,Go Success,348,21,Go
1,1,0,21,2,0,21,5,250,4pct,0,405,3,900,test,,,57,Go Success,405,22,Go
1,1,0,22,2,0,22,1,250,10pct,0,440,3,900,test,,,57,Go Success,440,23,Go
1,1,0,23,2,0,23,8,250,16pct,0,546,3,900,test,,,57,Go Success,546,24,Go
1,1,0,24,2,0,24,6,250,2pct,0,500,3,900,test,,,57,Go Success,500,25,Go
1,1,0,25,2,0,25,5,250,16pct,0,469,3,900,test,,,57,Go Success,469,26,Go
1,1,0,26,2,0,26,7,250,10pct,0,496,3,900,test,,,57,Go Success,496,27,Go
1,1,0,27,2,0,27,7,250,4pct,0,545,3,900,test,,,57,Go Success,545,28,Go
1,1,0,28,2,0,28,9,250,2pct,0,556,3,900,test,,,57,Go Success,556,29,Go
1,1,0,29,2,0,29,2,250,4pct,0,662,3,900,test,,,57,Go Success,662,30,Go
1,2,0,29,3,0,29,3,250,4pct,0,1150,0,900,test,,,0,NoGo Success,,31,No-Go
1,2,0,30,3,0,30,8,250,10pct,0,314,3,900,test,,,57,Go Success,314,32,Go
1,2,0,31,3,0,31,5,250,4pct,0,324,3,900,test,,,57,Go Success,324,33,Go
1,2,0,32,3,0,32,5,250,4pct,0,325,3,900,test,,,57,Go Success,325,34,Go
1,2,0,33,3,0,33,6,250,10pct,0,326,3,900,test,,,57,Go Success,326,35,Go
1,2,0,34,3,0,34,1,250,4pct,0,456,3,900,test,,,57,Go Success,456,36,Go
1,2,0,35,3,0,35,8,250,16pct,0,554,3,900,test,,,57,Go Success,554,37,Go
1,2,0,36,3,0,36,9,250,10pct,0,620,3,900,test,,,57,Go Success,620,38,Go
1,2,0,37,3,0,37,8,250,4pct,0,622,3,900,test,,,57,Go Success,622,39,Go
1,2,0,38,3,0,38,2,250,4pct,0,817,3,900,test,,,57,Go Success,817,40,Go
1,2,0,39,3,0,39,7,250,4pct,0,715,3,900,test,,,57,Go Success,715,41,Go
1,2,0,40,3,0,40,6,250,10pct,0,829,3,900,test,,,57,Go Success,829,42,Go
1,2,0,41,3,0,41,4,250,4pct,0,635,3,900,test,,,57,Go Success,635,43,Go
1,2,0,42,3,0,42,8,250,16pct,0,741,3,900,test,,,57,Go Success,741,44,Go
1,2,0,43,3,0,43,6,250,10pct,0,631,3,900,test,,,57,Go Success,631,45,Go
1,2,0,44,3,0,44,8,250,10pct,0,665,3,900,test,,,57,Go Success,665,46,Go
1,2,0,45,3,0,45,2,250,16pct,0,635,3,900,test,,,57,Go Success,635,47,Go
1,2,0,46,3,0,46,9,250,4pct,0,637,3,900,test,,,57,Go Success,637,48,Go
1,2,0,47,3,0,47,8,250,2pct,0,591,3,900,test,,,57,Go Success,591,49,Go
1,2,0,48,3,0,48,9,250,4pct,0,599,3,900,test,,,57,Go Success,599,50,Go
1,2,0,49,3,0,49,5,250,16pct,0,593,3,900,test,,,57,Go Success,593,51,Go
1,2,0,50,3,0,50,2,250,10pct,0,635,3,900,test,,,57,Go Success,635,52,Go
1,2,0,51,3,0,51,4,250,10pct,0,613,3,900,test,,,57,Go Success,613,53,Go
1,3,0,51,4,0,51,3,250,2pct,0,1150,0,900,test,,,0,NoGo Success,,54,No-Go
1,3,0,52,4,0,52,5,250,10pct,0,361,3,900,test,,,57,Go Success,361,55,Go
1,3,0,53,4,0,53,5,250,10pct,0,306,3,900,test,,,57,Go Success,306,56,Go
1,3,0,54,4,0,54,6,250,4pct,0,294,3,900,test,,,57,Go Success,294,57,Go
0,3,0,54,5,0,54,3,250,10pct,0,263,3,900,test,,,57,NoGo Failure,263,58,No-Go
1,3,0,55,5,0,55,2,250,16pct,0,280,3,900,test,,,57,Go Success,280,59,Go
1,3,0,56,5,0,56,7,250,2pct,0,506,3,900,test,,,57,Go Success,506,60,Go
1,3,0,57,5,0,57,5,250,4pct,0,476,3,900,test,,,57,Go Success,476,61,Go
1,3,0,58,5,0,58,7,250,10pct,0,560,3,900,test,,,57,Go Success,560,62,Go
1,3,0,59,5,0,59,8,250,16pct,0,585,3,900,test,,,57,Go Success,585,63,Go
1,3,0,60,5,0,60,2,250,2pct,0,635,3,900,test,,,57,Go Success,635,64,Go
1,3,0,61,5,0,61,7,250,2pct,0,604,3,900,test,,,57,Go Success,604,65,Go
1,3,0,62,5,0,62,4,250,10pct,0,615,3,900,test,,,57,Go Success,615,66,Go
1,3,0,63,5,0,63,1,250,16pct,0,593,3,900,test,,,57,Go Success,593,67,Go
1,4,0,63,6,0,63,3,250,16pct,0,1150,0,900,test,,,0,NoGo Success,,68,No-Go
1,4,0,64,6,0,64,7,250,10pct,0,380,3,900,test,,,57,Go Success,380,69,Go
1,4,0,65,6,0,65,4,250,16pct,0,486,3,900,test,,,57,Go Success,486,70,Go
1,4,0,66,6,0,66,6,250,10pct,0,568,3,900,test,,,57,Go Success,568,71,Go
1,4,0,67,6,0,67,4,250,10pct,0,593,3,900,test,,,57,Go Success,593,72,Go
1,4,0,68,6,0,68,8,250,2pct,0,348,3,900,test,,,57,Go Success,348,73,Go
1,4,0,69,6,0,69,8,250,10pct,0,357,3,900,test,,,57,Go Success,357,74,Go
1,4,0,70,6,0,70,4,250,2pct,0,399,3,900,test,,,57,Go Success,399,75,Go
1,4,0,71,6,0,71,1,250,10pct,0,490,3,900,test,,,57,Go Success,490,76,Go
1,4,0,72,6,0,72,9,250,2pct,0,363,3,900,test,,,57,Go Success,363,77,Go
1,4,0,73,6,0,73,9,250,10pct,0,333,3,900,test,,,57,Go Success,333,78,Go
1,4,0,74,6,0,74,4,250,10pct,0,447,3,900,test,,,57,Go Success,447,79,Go
1,4,0,75,6,0,75,8,250,4pct,0,481,3,900,test,,,57,Go Success,481,80,Go
1,4,0,76,6,0,76,2,250,10pct,0,604,3,900,test,,,57,Go Success,604,81,Go
1,4,0,77,6,0,77,2,250,16pct,0,621,3,900,test,,,57,Go Success,621,82,Go
1,4,0,78,6,0,78,8,250,10pct,0,536,3,900,test,,,57,Go Success,536,83,Go
1,4,0,79,6,0,79,7,250,4pct,0,537,3,900,test,,,57,Go Success,537,84,Go
1,5,0,79,7,0,79,3,250,10pct,0,1150,0,900,test,,,0,NoGo Success,,85,No-Go
1,5,0,80,7,0,80,4,250,16pct,0,429,3,900,test,,,57,Go Success,429,86,Go
1,5,0,81,7,0,81,7,250,10pct,0,367,3,900,test,,,57,Go Success,367,87,Go
1,5,0,82,7,0,82,1,250,10pct,0,329,3,900,test,,,57,Go Success,329,88,Go
1,5,0,83,7,0,83,4,250,10pct,0,267,3,900,test,,,57,Go Success,267,89,Go
1,6,0,83,8,0,83,3,250,4pct,0,1150,0,900,test,,,0,NoGo Success,,90,No-Go
1,6,0,84,8,0,84,5,250,4pct,0,255,3,900,test,,,57,Go Success,255,91,Go
1,6,0,85,8,0,85,9,250,10pct,0,256,3,900,test,,,57,Go Success,256,92,Go
1,6,0,86,8,0,86,8,250,10pct,0,243,3,900,test,,,57,Go Success,243,93,Go
1,6,0,87,8,0,87,4,250,4pct,0,282,3,900,test,,,57,Go Success,282,94,Go
1,6,0,88,8,0,88,7,250,2pct,0,220,3,900,test,,,57,Go Success,220,95,Go
1,6,0,89,8,0,89,4,250,4pct,0,229,3,900,test,,,57,Go Success,229,96,Go
1,6,0,90,8,0,89,1,250,2pct,0,128,2,900,test,,,57,Go Ambiguous,128,97,Go
1,6,0,91,8,0,90,2,250,16pct,0,217,3,900,test,,,57,Go Success,217,98,Go
1,6,1,92,8,0,90,6,250,10pct,0,59,1,900,test,,,57,Go Anticipatory,59,99,Go
1,6,2,93,8,0,90,6,250,10pct,0,60,1,900,test,,,57,Go Anticipatory,60,100,Go
1,6,2,94,8,0,91,4,250,10pct,0,437,3,900,test,,,57,Go Success,437,101,Go
1,6,2,95,8,0,92,6,250,10pct,0,271,3,900,test,,,57,Go Success,271,102,Go
1,6,2,96,8,0,93,6,250,16pct,0,234,3,900,test,,,57,Go Success,234,103,Go
1,6,2,97,8,0,94,9,250,10pct,0,260,3,900,test,,,57,Go Success,260,104,Go
1,6,2,98,8,0,95,9,250,4pct,0,238,3,900,test,,,57,Go Success,238,105,Go
1,6,2,99,8,0,96,7,250,10pct,0,280,3,900,test,,,57,Go Success,280,106,Go
1,6,2,100,8,0,97,6,250,10pct,0,305,3,900,test,,,57,Go Success,305,107,Go
1,6,2,101,8,0,98,4,250,2pct,0,242,3,900,test,,,57,Go Success,242,108,Go
1,6,2,102,8,0,98,1,250,10pct,0,125,2,900,test,,,57,Go Ambiguous,125,109,Go
1,6,2,103,8,0,99,7,250,4pct,0,614,3,900,test,,,57,Go Success,614,110,Go
0,6,2,103,9,0,99,3,250,10pct,0,336,3,900,test,,,57,NoGo Failure,336,111,No-Go
0,6,2,103,10,0,99,3,250,4pct,0,755,3,900,test,,,57,NoGo Failure,755,112,No-Go
0,6,2,104,10,0,99,9,250,2pct,1,1150,0,900,test,,,0,Omission,,113,Go
1,6,2,105,10,0,100,8,250,10pct,1,399,3,900,test,,,57,Go Success,399,114,Go
1,6,2,106,10,0,101,2,250,2pct,1,345,3,900,test,,,57,Go Success,345,115,Go
1,6,2,107,10,0,102,7,250,16pct,1,274,3,900,test,,,57,Go Success,274,116,Go
1,6,2,108,10,0,103,6,250,16pct,1,293,3,900,test,,,57,Go Success,293,117,Go
1,6,2,109,10,0,104,6,250,16pct,1,327,3,900,test,,,57,Go Success,327,118,Go
1,6,2,110,10,0,105,1,250,10pct,1,369,3,900,test,,,57,Go Success,369,119,Go
1,6,2,111,10,0,106,9,250,10pct,1,482,3,900,test,,,57,Go Success,482,120,Go
1,6,2,112,10,0,107,9,250,10pct,1,564,3,900,test,,,57,Go Success,564,121,Go
1,7,2,112,11,0,107,3,250,16pct,1,1150,0,900,test,,,0,NoGo Success,,122,No-Go
1,7,2,113,11,0,108,1,250,2pct,1,328,3,900,test,,,57,Go Success,328,123,Go
1,7,2,114,11,0,109,4,250,2pct,1,298,3,900,test,,,57,Go Success,298,124,Go
1,7,2,115,11,0,110,1,250,4pct,1,252,3,900,test,,,57,Go Success,252,125,Go
1,7,2,116,11,0,111,1,250,16pct,1,254,3,900,test,,,57,Go Success,254,126,Go
1,7,2,117,11,0,112,2,250,10pct,1,256,3,900,test,,,57,Go Success,256,127,Go
0,7,2,117,12,0,112,3,250,10pct,1,274,3,900,test,,,57,NoGo Failure,274,128,No-Go
1,7,2,118,12,0,113,6,250,16pct,1,243,3,900,test,,,57,Go Success,243,129,Go
1,7,2,119,12,0,114,8,250,4pct,1,214,3,900,test,,,57,Go Success,214,130,Go
1,7,2,120,12,0,115,5,250,10pct,1,264,3,900,test,,,57,Go Success,264,131,Go
1,7,2,121,12,0,116,9,250,4pct,1,258,3,900,test,,,57,Go Success,258,132,Go
0,7,2,121,13,0,116,3,250,16pct,1,212,3,900,test,,,57,NoGo Failure,212,133,No-Go
1,7,2,122,13,0,117,9,250,16pct,1,262,3,900,test,,,57,Go Success,262,134,Go
1,7,2,123,13,0,118,5,250,4pct,1,240,3,900,test,,,57,Go Success,240,135,Go
1,7,2,124,13,0,119,5,250,4pct,1,232,3,900,test,,,57,Go Success,232,136,Go
1,7,2,125,13,0,120,4,250,2pct,1,259,3,900,test,,,57,Go Success,259,137,Go
1,7,2,126,13,0,121,2,250,16pct,1,285,3,900,test,,,57,Go Success,285,138,Go
1,7,2,127,13,0,122,6,250,16pct,1,271,3,900,test,,,57,Go Success,271,139,Go
1,7,2,128,13,0,123,8,250,2pct,1,337,3,900,test,,,57,Go Success,337,140,Go
1,8,2,128,14,0,123,3,250,10pct,1,1150,0,900,test,,,0,NoGo Success,,141,No-Go
1,8,2,129,14,0,124,8,250,10pct,1,252,3,900,test,,,57,Go Success,252,142,Go
1,8,2,130,14,0,125,4,250,16pct,1,263,3,900,test,,,57,Go Success,263,143,Go
1,8,2,131,14,0,126,4,250,10pct,1,257,3,900,test,,,57,Go Success,257,144,Go
1,8,2,132,14,0,127,2,250,10pct,1,234,3,900,test,,,57,Go Success,234,145,Go
1,8,2,133,14,0,128,5,250,10pct,1,205,3,900,test,,,57,Go Success,205,146,Go
1,8,2,134,14,0,129,2,250,2pct,1,354,3,900,test,,,57,Go Success,354,147,Go
1,8,2,135,14,0,130,1,250,10pct,1,422,3,900,test,,,57,Go Success,422,148,Go
1,8,2,136,14,0,131,1,250,2pct,1,480,3,900,test,,,57,Go Success,480,149,Go
1,8,2,137,14,0,132,5,250,4pct,1,496,3,900,test,,,57,Go Success,496,150,Go
1,8,2,138,14,0,133,9,250,10pct,1,538,3,900,test,,,57,Go Success,538,151,Go
1,8,2,139,14,0,134,5,250,16pct,1,484,3,900,test,,,57,Go Success,484,152,Go
1,8,2,140,14,0,135,4,250,16pct,1,534,3,900,test,,,57,Go Success,534,153,Go
1,8,2,141,14,0,136,5,250,16pct,1,584,3,900,test,,,57,Go Success,584,154,Go
1,9,2,141,15,0,136,3,250,2pct,1,1150,0,900,test,,,0,NoGo Success,,155,No-Go
1,9,2,142,15,0,137,4,250,2pct,1,428,3,900,test,,,57,Go Success,428,156,Go
1,9,2,143,15,0,138,2,250,10pct,1,494,3,900,test,,,57,Go Success,494,157,Go
1,9,2,144,15,0,139,5,250,2pct,1,608,3,900,test,,,57,Go Success,608,158,Go
1,9,2,145,15,0,140,6,250,2pct,1,586,3,900,test,,,57,Go Success,586,159,Go
1,9,2,146,15,0,141,9,250,2pct,1,587,3,900,test,,,57,Go Success,587,160,Go
1,9,2,147,15,0,142,4,250,10pct,1,574,3,900,test,,,57,Go Success,574,161,Go
1,9,2,148,15,0,143,6,250,10pct,1,503,3,900,test,,,57,Go Success,503,162,Go
1,10,2,148,16,0,143,3,250,16pct,1,1150,0,900,test,,,0,NoGo Success,,163,No-Go
1,10,2,149,16,0,144,1,250,10pct,1,403,3,900,test,,,57,Go Success,403,164,Go
1,10,2,150,16,0,145,5,250,4pct,1,333,3,900,test,,,57,Go Success,333,165,Go
1,10,2,151,16,0,146,5,250,4pct,1,247,3,900,test,,,57,Go Success,247,166,Go
1,10,2,152,16,0,147,4,250,16pct,1,273,3,900,test,,,57,Go Success,273,167,Go
1,10,2,153,16,0,148,6,250,4pct,1,259,3,900,test,,,57,Go Success,259,168,Go
1,10,2,154,16,0,149,4,250,2pct,1,269,3,900,test,,,57,Go Success,269,169,Go
1,10,2,155,16,0,150,5,250,10pct,1,263,3,900,test,,,57,Go Success,263,170,Go
1,10,2,156,16,0,151,5,250,10pct,1,297,3,900,test,,,57,Go Success,297,171,Go
1,10,2,157,16,0,152,6,250,4pct,1,451,3,900,test,,,57,Go Success,451,172,Go
1,10,2,158,16,0,153,2,250,10pct,1,301,3,900,test,,,57,Go Success,301,173,Go
1,11,2,158,17,0,153,3,250,10pct,1,1150,0,900,test,,,0,NoGo Success,,174,No-Go
1,11,2,159,17,0,154,8,250,16pct,1,304,3,900,test,,,57,Go Success,304,175,Go
1,12,2,159,18,0,154,3,250,10pct,1,1150,0,900,test,,,0,NoGo Success,,176,No-Go
1,12,2,160,18,0,155,1,250,2pct,1,372,3,900,test,,,57,Go Success,372,177,Go
1,12,2,161,18,0,156,9,250,2pct,1,382,3,900,test,,,57,Go Success,382,178,Go
0,12,2,161,19,0,156,3,250,16pct,1,313,3,900,test,,,57,NoGo Failure,313,179,No-Go
1,12,2,162,19,0,157,2,250,10pct,1,314,3,900,test,,,57,Go Success,314,180,Go
1,12,2,163,19,0,158,7,250,10pct,1,412,3,900,test,,,57,Go Success,412,181,Go
1,12,2,164,19,0,159,6,250,10pct,1,318,3,900,test,,,57,Go Success,318,182,Go
1,12,2,165,19,0,160,6,250,10pct,1,304,3,900,test,,,57,Go Success,304,183,Go
1,12,2,166,19,0,161,2,250,10pct,1,290,3,900,test,,,57,Go Success,290,184,Go
1,12,2,167,19,0,162,2,250,10pct,1,284,3,900,test,,,57,Go Success,284,185,Go
1,12,2,168,19,0,163,8,250,10pct,1,590,3,900,test,,,57,Go Success,590,186,Go
1,12,2,169,19,0,164,8,250,2pct,1,448,3,900,test,,,57,Go Success,448,187,Go
1,12,2,170,19,0,165,6,250,2pct,1,385,3,900,test,,,57,Go Success,385,188,Go
1,13,2,170,20,0,165,3,250,4pct,1,1150,0,900,test,,,0,NoGo Success,,189,No-Go
1,13,2,171,20,0,166,2,250,2pct,1,333,3,900,test,,,57,Go Success,333,190,Go
1,13,2,172,20,0,167,1,250,2pct,1,368,3,900,test,,,57,Go Success,368,191,Go
1,13,2,173,20,0,168,6,250,10pct,1,345,3,900,test,,,57,Go Success,345,192,Go
1,13,2,174,20,0,169,1,250,10pct,1,371,3,900,test,,,57,Go Success,371,193,Go
1,14,2,174,21,0,169,3,250,10pct,1,1150,0,900,test,,,0,NoGo Success,,194,No-Go
1,14,2,175,21,0,170,1,250,4pct,1,319,3,900,test,,,57,Go Success,319,195,Go
1,14,2,176,21,0,171,7,250,10pct,1,313,3,900,test,,,57,Go Success,313,196,Go
1,14,2,177,21,0,172,2,250,16pct,1,323,3,900,test,,,57,Go Success,323,197,Go
1,14,2,178,21,0,173,9,250,16pct,1,341,3,900,test,,,57,Go Success,341,198,Go
1,14,2,179,21,0,174,9,250,10pct,1,321,3,900,test,,,57,Go Success,321,199,Go
1,14,2,180,21,0,175,8,250,16pct,1,370,3,900,test,,,57,Go Success,370,200,Go
1,14,2,181,21,0,176,7,250,2pct,1,382,3,900,test,,,57,Go Success,382,201,Go
1,14,2,182,21,0,177,2,250,10pct,1,304,3,900,test,,,57,Go Success,304,202,Go
1,14,2,183,21,0,178,7,250,16pct,1,306,3,900,test,,,57,Go Success,306,203,Go
1,14,2,184,21,0,179,9,250,4pct,1,340,3,900,test,,,57,Go Success,340,204,Go
1,14,2,185,21,0,180,7,250,16pct,1,358,3,900,test,,,57,Go Success,358,205,Go
1,14,2,186,21,0,181,1,250,16pct,1,384,3,900,test,,,57,Go Success,384,206,Go
1,14,2,187,21,0,182,4,250,10pct,1,482,3,900,test,,,57,Go Success,482,207,Go
1,14,2,188,21,0,183,8,250,10pct,1,340,3,900,test,,,57,Go Success,340,208,Go
1,14,2,189,21,0,184,5,250,4pct,1,461,3,900,test,,,57,Go Success,461,209,Go
1,14,2,190,21,0,185,9,250,2pct,1,423,3,900,test,,,57,Go Success,423,210,Go
1,14,2,191,21,0,186,5,250,4pct,1,433,3,900,test,,,57,Go Success,433,211,Go
1,14,2,192,21,0,187,6,250,10pct,1,611,3,900,test,,,57,Go Success,611,212,Go
1,14,2,193,21,0,188,9,250,4pct,1,661,3,900,test,,,57,Go Success,661,213,Go
1,15,2,193,22,0,188,3,250,2pct,1,1150,0,900,test,,,0,NoGo Success,,214,No-Go
1,15,2,194,22,0,189,9,250,10pct,1,465,3,900,test,,,57,Go Success,465,215,Go
1,15,2,195,22,0,190,8,250,4pct,1,371,3,900,test,,,57,Go Success,371,216,Go
1,15,2,196,22,0,191,7,250,10pct,1,349,3,900,test,,,57,Go Success,349,217,Go
0,15,2,196,23,0,191,3,250,10pct,1,375,3,900,test,,,57,NoGo Failure,375,218,No-Go
1,15,2,197,23,0,192,4,250,10pct,1,441,3,900,test,,,57,Go Success,441,219,Go
1,16,2,197,24,0,192,3,250,2pct,1,1150,0,900,test,,,0,NoGo Success,,220,No-Go
1,16,2,198,24,0,193,1,250,2pct,1,301,3,900,test,,,57,Go Success,301,221,Go
0,16,2,199,24,0,193,6,250,10pct,2,1150,0,900,test,,,0,Omission,,222,Go
1,16,2,200,24,0,194,5,250,4pct,2,296,3,900,test,,,57,Go Success,296,223,Go
1,16,2,201,24,0,195,9,250,16pct,2,530,3,900,test,,,57,Go Success,530,224,Go
1,16,2,202,24,0,196,2,250,10pct,2,340,3,900,test,,,57,Go Success,340,225,Go
1,16,2,203,24,0,197,7,250,10pct,2,382,3,900,test,,,57,Go Success,382,226,Go
1,16,2,204,24,0,198,7,250,10pct,2,472,3,900,test,,,57,Go Success,472,227,Go
1,16,2,205,24,0,199,1,250,4pct,2,410,3,900,test,,,57,Go Success,410,228,Go
1,16,2,206,24,0,200,8,250,2pct,2,380,3,900,test,,,57,Go Success,380,229,Go
1,16,2,207,24,0,201,7,250,10pct,2,406,3,900,test,,,57,Go Success,406,230,Go
1,16,2,208,24,0,202,1,250,2pct,2,480,3,900,test,,,57,Go Success,480,231,Go
1,16,2,209,24,0,203,7,250,2pct,2,386,3,900,test,,,57,Go Success,386,232,Go
1,17,2,209,25,0,203,3,250,4pct,2,1150,0,900,test,,,0,NoGo Success,,233,No-Go
0,17,2,209,26,0,203,3,250,16pct,2,270,3,900,test,,,57,NoGo Failure,270,234,No-Go
1,17,2,210,26,0,204,2,250,10pct,2,256,3,900,test,,,57,Go Success,256,235,Go
1,17,2,211,26,0,205,2,250,10pct,2,274,3,900,test,,,57,Go Success,274,236,Go
1,17,2,212,26,0,206,7,250,4pct,2,332,3,900,test,,,57,Go Success,332,237,Go
1,17,2,213,26,0,207,5,250,2pct,2,285,3,900,test,,,57,Go Success,285,238,Go
1,18,2,213,27,0,207,3,250,2pct,2,1150,0,900,test,,,0,NoGo Success,,239,No-Go
1,18,2,214,27,0,208,7,250,2pct,2,505,3,900,test,,,57,Go Success,505,240,Go
1,18,2,215,27,0,209,8,250,2pct,2,355,3,900,test,,,57,Go Success,355,241,Go
1,18,2,216,27,0,210,9,250,10pct,2,309,3,900,test,,,57,Go Success,309,242,Go
